File: Hardware/styrofoam_newsetup.csv
Wavelength,Wavenumber,Intensity
251.839,20910.9,0.423168
252.915,20742,0.0843184
253.99,20574.6,0.322301
255.066,20408.5,0.129236
256.142,20243.9,0.266351
257.218,20080.6,0.137116
258.293,19918.7,0.117415
259.369,19758.1,0.0559496
260.445,19598.8,0.00394011
261.521,19440.9,0.0378251
262.596,19284.3,0.122931
263.672,19128.9,0.0330969
264.748,18974.8,0.0
265.824,18821.9,0.0315209
266.899,18670.3,0.12766
267.975,18519.9,0.0890465
269.051,18370.7,0.154452
270.127,18222.7,0.0409771
271.202,18075.8,0.0
272.278,17930.1,0.154452
273.354,17785.6,0.114263
274.43,17642.2,0.206462
275.505,17499.9,0.206462
276.581,17358.7,0.0945626
277.657,17218.7,0.116627
278.733,17079.7,0.0
279.809,16941.7,0.136328
280.884,16804.9,0.202522
281.96,16669,0.190701
283.036,16534.2,0.0
284.112,16400.5,0.156816
285.187,16267.7,0.108747
286.263,16135.9,0.165485
287.339,16005.1,0.152876
288.415,15875.3,0.157604
289.49,15746.5,0.360914
290.566,15618.6,0.343578
291.642,15491.6,0.0
292.718,15365.6,0.22695
293.793,15240.5,0.0929866
294.869,15116.4,0.326241
295.945,14993.1,0.204098
297.021,14870.7,0.385343
298.096,14749.2,0.0
299.172,14628.6,0.212766
300.248,14508.8,0.0480693
301.324,14389.9,0.0685579
302.399,14271.9,0.144208
303.475,14154.6,0.242711
304.551,14038.2,0.434988
305.627,13922.7,0.579984
306.702,13807.9,0.0
307.778,13693.9,0.326241
308.854,13580.8,0.0598897
309.93,13468.4,0.156028
311.005,13356.8,0.393223
312.081,13245.9,0.335697
313.157,13135.9,0.00866824
314.233,13026.6,0.0803783
315.308,12918,0.0
316.384,12810.1,0.145784
317.46,12703,0.303388
318.536,12596.7,0.192277
319.612,12491,0.0
320.687,12386,0.200158
321.763,12281.8,0.387707
322.839,12178.2,0.177305
323.915,12075.3,0.246651
324.99,11973.2,0.291568
326.066,11871.6,0.0
327.142,11770.8,0.243499
328.218,11670.6,0.295508
329.293,11571.1,0.152088
330.369,11472.2,0.251379
331.445,11373.9,0.434988
332.521,11276.3,0.0
333.596,11179.4,0.312057
334.672,11083,0.353034
335.748,10987.3,0.331757
336.824,10892.1,0.0
337.899,10797.6,0.304177
338.975,10703.7,0.103231
340.051,10610.4,0.29472
341.127,10517.6,0.0480693
342.202,10425.5,0.0386131
343.278,10333.9,0.0858944
344.354,10242.9,0.14736
345.43,10152.5,0.137116
346.505,10062.6,0.20331
347.581,9973.26,0.0
348.657,9884.49,0.483846
349.733,9796.27,0.189125
350.808,9708.59,0.0
351.884,9621.45,0.238771
352.96,9534.83,0.185185
354.036,9448.74,0.161545
355.111,9363.18,0.306541
356.187,9278.13,0.164697
357.263,9193.59,0.359338
358.339,9109.56,0.0
359.415,9026.03,0.320725
360.49,8943.01,0.202522
361.566,8860.47,0.368794
362.642,8778.43,0.111899
363.718,8696.87,0.0559496
364.793,8615.79,0.133964
365.869,8535.19,0.272656
366.945,8455.06,0.0
368.021,8375.4,0.14736
369.096,8296.21,0.0323089
370.172,8217.47,0.382979
371.248,8139.19,0.15524
372.324,8061.36,0.349882
373.399,7983.99,0.193853
374.475,7907.05,0.0
375.551,7830.56,0.0638298
376.627,7754.5,0.273444
377.702,7678.88,0.0
378.778,7603.69,0.115051
379.854,7528.92,0.394011
380.93,7454.57,0.394799
382.005,7380.65,0.0
383.081,7307.14,0.375099
384.157,7234.04,0.0756501
385.233,7161.34,0.423956
386.308,7089.06,0.250591
387.384,7017.17,0.315209
388.46,6945.69,0.0425532
389.536,6874.59,0.0
390.611,6803.89,0.117415
391.687,6733.58,0.241135
392.763,6663.66,0.0
393.839,6594.11,0.0748621
394.914,6524.94,0.0567376
395.99,6456.15,0.119779
397.066,6387.74,0.1316
398.142,6319.69,0.215918
399.218,6252.01,0.224586
400.293,6184.69,0.214342
401.369,6117.73,0.0
402.445,6051.14,0.144996
403.521,5984.89,0.0740741
404.596,5919,0.0197006
405.672,5853.46,0.0977147
406.748,5788.27,0.103231
407.824,5723.41,0.156816
408.899,5658.9,0.126084
409.975,5594.73,0.00394011
411.051,5530.9,0.226162
412.127,5467.4,0.0
413.202,5404.22,0.384555
414.278,5341.38,0.196217
415.354,5278.86,0.215918
416.43,5216.67,0.0
417.505,5154.79,0.121355
418.581,5093.24,0.123719
419.657,5032,0.0
420.733,4971.07,0.27108
421.808,4910.45,0.252167
422.884,4850.14,0.0
423.96,4790.14,0.190701
425.036,4730.44,0.215918
426.111,4671.05,0.383767
427.187,4611.95,0.0
428.263,4553.15,0.310481
429.339,4494.64,0.193853
430.414,4436.43,0.243499
431.49,4378.5,0.289204
432.566,4320.87,0.34279
433.642,4263.52,0.0
434.717,4206.45,0.386919
435.793,4149.67,0.070134
436.869,4093.16,0.472813
437.945,4036.94,0.445232
439.021,3980.99,0.369582
440.096,3925.31,0.208038
441.172,3869.9,0.583136
442.248,3814.77,0.0
443.324,3759.9,0.423956
444.399,3705.29,0.323089
445.475,3650.95,0.072498
446.551,3596.88,0.0
447.627,3543.06,0.314421
448.702,3489.5,0.189913
449.778,3436.19,0.141844
450.854,3383.14,0.0480693
451.93,3330.35,0.281324
453.005,3277.8,0.0535855
454.081,3225.5,0.144996
455.157,3173.45,0.0
456.233,3121.65,0.14342
457.308,3070.09,0.0677699
458.384,3018.77,0.233255
459.46,2967.69,0.170213
460.536,2916.85,0.0
461.611,2866.25,0.224586
462.687,2815.88,0.407407
463.763,2765.75,0.0
464.839,2715.85,0.35855
465.914,2666.18,0.0220646
466.99,2616.73,0.108747
468.066,2567.52,0.148148
469.142,2518.53,0.328605
470.217,2469.76,0.0118203
471.293,2421.22,0.363278
472.369,2372.9,0.0
473.445,2324.8,0.297084
474.52,2276.91,0.163121
475.596,2229.25,0.0851064
476.672,2181.79,0.168637
477.748,2134.55,0.2829
478.824,2087.53,0.0
479.899,2040.71,0.209614
480.975,1994.11,0.228526
482.051,1947.71,0.132388
483.127,1901.52,0.27502
484.202,1855.53,0.359338
485.278,1809.75,0.171789
486.354,1764.17,0.379039
487.43,1718.79,0.0457053
488.505,1673.61,0.511426
489.581,1628.63,0.0
490.657,1583.85,0.198582
491.733,1539.26,0.209614
492.808,1494.87,0.174941
493.884,1450.67,0.100867
494.96,1406.67,0.23089
496.036,1362.85,0.0133964
497.111,1319.22,0.149724
498.187,1275.79,0.255319
499.263,1232.53,0.122143
500.339,1189.47,0.0
501.414,1146.59,0.293932
502.49,1103.89,0.297084
503.566,1061.38,0.185185
504.642,1019.05,0.0
505.717,976.895,0.347518
506.793,934.922,0.126872
507.869,893.126,0.0236407
508.945,851.507,0.125296
510.02,810.064,0.14736
511.096,768.795,0.132388
512.172,727.699,0.277384
513.248,686.776,0.239559
514.323,646.023,0.171001
515.399,605.441,0.124507
516.475,565.028,0.0
517.551,524.783,0.0165485
518.627,484.705,0.451537
519.702,444.793,0.0598897
520.778,405.046,0.264775
521.854,365.463,0.247439
522.93,326.042,0.0567376
524.005,286.784,0.332545
525.081,247.686,0.289992
526.157,208.748,0.0
527.233,169.969,0.141844
528.308,131.348,0.171001
529.384,92.8837,0.0772262
530.46,54.5756,0.196217
531.536,16.4226,0.0
532.611,-21.5764,15.7203
533.687,-59.4221,0.241135
534.763,-97.1156,0.43814
535.839,-134.658,0.548463
536.914,-172.049,0.253743
537.99,-209.292,0.0323089
539.066,-246.385,0.0472813
540.142,-283.331,0.0874704
541.217,-320.13,0.0299448
542.293,-356.783,0.158392
543.369,-393.29,0.0
544.445,-429.654,0.241923
545.52,-465.874,0.122931
546.596,-501.951,0.318361
547.672,-537.887,0.182821
548.748,-573.682,0.0
549.823,-609.337,0.148936
550.899,-644.852,0.0394011
551.975,-680.23,0.0
553.051,-715.469,0.243499
554.127,-750.572,0.0795902
555.202,-785.538,0.106383
556.278,-820.37,0.0
557.354,-855.067,0.0756501
558.43,-889.63,0.129236
559.505,-924.06,0.0929866
560.581,-958.359,0.145784
561.657,-992.525,0.111899
562.733,-1026.56,0.0
563.808,-1060.47,0.249803
564.884,-1094.25,0.152088
565.96,-1127.89,0.315209
567.036,-1161.41,0.115051
568.111,-1194.81,0.107959
569.187,-1228.08,0.220646
570.263,-1261.22,0.0
571.339,-1294.24,0.266351
572.414,-1327.13,0.382191
573.49,-1359.9,0.0228526
574.566,-1392.55,0.319937
575.642,-1425.07,0.0
576.717,-1457.48,0.466509
577.793,-1489.76,0.293144
578.869,-1521.92,0.123719
579.945,-1553.97,0.0
581.02,-1585.89,0.141844
582.096,-1617.7,0.0677699
583.172,-1649.39,0.0204886
584.248,-1680.96,0.0
585.323,-1712.42,0.186761
586.399,-1743.76,0.0921986
587.475,-1774.99,0.231678
588.551,-1806.1,0.144208
589.626,-1837.1,0.0480693
590.702,-1867.99,0.0181245
591.778,-1898.76,0.114263
592.854,-1929.43,0.0
593.93,-1959.98,0.437352
595.005,-1990.42,0.316785
596.081,-2020.75,0.175729
597.157,-2050.97,0.0
598.233,-2081.08,0.402679
599.308,-2111.09,0.178881
600.384,-2140.99,0.166273
601.46,-2170.78,0.0
602.536,-2200.46,0.128448
603.611,-2230.04,0.103231
604.687,-2259.51,0.0488574
605.763,-2288.88,0.0764381
606.839,-2318.15,0.0669819
607.914,-2347.31,0.0985028
608.99,-2376.36,0.14736
610.066,-2405.32,0.0
611.142,-2434.17,0.21907
612.217,-2462.92,0.205674
613.293,-2491.58,0.300236
614.369,-2520.13,0.281324
615.445,-2548.58,0.105595
616.52,-2576.93,0.0283688
617.596,-2605.18,0.196217
618.672,-2633.34,0.327029
619.748,-2661.39,0.409771
620.823,-2689.35,0.677699
621.899,-2717.22,1.44287
622.975,-2744.98,2.03467
624.051,-2772.65,2.12845
625.126,-2800.23,0.966903
626.202,-2827.71,0.330181
627.278,-2855.1,0.348306
628.354,-2882.39,0.234043
629.429,-2909.59,0.0
630.505,-2936.7,0.234831
631.581,-2963.71,0.237195
632.657,-2990.63,0.0149724
633.733,-3017.46,0.0330969
634.808,-3044.2,0.0
635.884,-3070.85,0.124507
636.96,-3097.41,0.0819543
638.036,-3123.88,0.152876
639.111,-3150.27,0.267928
640.187,-3176.56,0.129236
641.263,-3202.76,0.0
642.339,-3228.88,0.0969267
643.414,-3254.91,0.201734
644.49,-3280.85,0.0
645.566,-3306.71,0.193853
646.642,-3332.48,0.0843184
647.717,-3358.16,0.0606777
648.793,-3383.76,0.0882585
649.869,-3409.27,0.167061
650.945,-3434.7,0.0
652.02,-3460.05,0.0748621
653.096,-3485.31,0.368006
654.172,-3510.49,0.390071
655.248,-3535.59,0.137116
656.323,-3560.6,0.0
657.399,-3585.53,0.14342
658.475,-3610.38,0.0110323
659.551,-3635.16,0.0110323
660.626,-3659.84,0.21907
661.702,-3684.45,0.0307329
662.778,-3708.98,0.0575256
663.854,-3733.43,0.0425532
664.929,-3757.8,0.118991
666.005,-3782.09,0.152876
667.081,-3806.31,0.072498
668.157,-3830.44,0.105595
669.232,-3854.5,0.0
670.308,-3878.48,0.134752
671.384,-3902.39,0.258471
672.46,-3926.21,0.0
673.536,-3949.97,0.126084
674.611,-3973.64,0.00315209
675.687,-3997.24,0.154452
676.763,-4020.77,0.0480693
677.839,-4044.22,0.0630418
678.914,-4067.59,0.13948
679.99,-4090.89,0.0275808
681.066,-4114.12,0.185185
682.142,-4137.28,0.162333
683.217,-4160.36,0.137116
684.293,-4183.37,0.279748
685.369,-4206.31,0.0157604
686.445,-4229.17,0.0
687.52,-4251.97,0.036249
688.596,-4274.69,0.0772262
689.672,-4297.34,0.0906225
690.748,-4319.92,0.0
691.823,-4342.44,0.178093
692.899,-4364.88,0.300236
693.975,-4387.25,0.0
695.051,-4409.55,0.283688
696.126,-4431.79,0.196217
697.202,-4453.95,0.0
698.278,-4476.05,0.122143
699.354,-4498.08,0.0906225
700.429,-4520.04,0.0
701.505,-4541.93,0.136328
702.581,-4563.76,0.0661939
703.657,-4585.52,0.0764381
704.732,-4607.21,0.0
705.808,-4628.84,0.22695
706.884,-4650.4,0.0315209
707.96,-4671.9,0.157604
709.035,-4693.33,0.133964
710.111,-4714.69,0.0764381
711.187,-4735.99,0.0
712.263,-4757.23,0.0882585
713.339,-4778.4,0.102443
714.414,-4799.51,0.0
715.49,-4820.56,0.215918
716.566,-4841.54,0.215918
717.642,-4862.46,0.0
718.717,-4883.32,0.0961387
719.793,-4904.11,0.259259
720.869,-4924.84,0.0338849
721.945,-4945.51,0.121355
723.02,-4966.12,0.175729
724.096,-4986.67,0.0740741
725.172,-5007.16,0.0575256
726.248,-5027.58,0.342002
727.323,-5047.95,0.184397
728.399,-5068.26,0.0
729.475,-5088.5,0.177305
730.551,-5108.69,0.188337
731.626,-5128.81,0.0598897
732.702,-5148.88,0.191489
733.778,-5168.89,0.349094
734.854,-5188.84,0.0204886
735.929,-5208.73,0.164697
737.005,-5228.57,0.0378251
738.081,-5248.34,0.0669819
739.157,-5268.06,0.0646178
740.232,-5287.72,0.0
741.308,-5307.33,0.0977147
742.384,-5326.87,0.313633
743.46,-5346.36,0.07171
744.535,-5365.8,0.128448
745.611,-5385.18,0.175729
746.687,-5404.5,0.265563
747.763,-5423.77,0.13554
748.838,-5442.98,0.0
749.914,-5462.13,0.0267928
750.99,-5481.24,0.132388
752.066,-5500.28,0.338061
753.142,-5519.28,0.445232
754.217,-5538.21,0.308905
755.293,-5557.1,0.128448
756.369,-5575.93,0.0874704
757.445,-5594.71,0.233255
758.52,-5613.43,0.0386131
759.596,-5632.1,0.0
760.672,-5650.72,0.214342
761.748,-5669.28,0.392435
762.823,-5687.8,0.396375
763.899,-5706.26,0.546099
764.975,-5724.67,0.576044
766.051,-5743.02,0.213554
767.126,-5761.33,0.253743
768.202,-5779.58,0.223798
769.278,-5797.79,0.0811663
770.354,-5815.94,0.0874704
771.429,-5834.04,0.0
772.505,-5852.09,0.177305
773.581,-5870.1,0.493302
774.657,-5888.05,0.531127
775.732,-5905.95,0.347518
776.808,-5923.8,0.399527
777.884,-5941.6,0.4145
778.96,-5959.36,0.794326
780.035,-5977.06,0.576044
781.111,-5994.72,0.64145
782.187,-6012.32,0.386919
783.263,-6029.88,0.134752
784.338,-6047.39,0.243499
785.414,-6064.86,0.831363
786.49,-6082.27,0.663515
787.566,-6099.64,0.762805
788.641,-6116.96,1.171
789.717,-6134.23,1.52719
790.793,-6151.46,1.32309
791.869,-6168.64,0.886525
792.945,-6185.77,1.4011
794.02,-6202.86,1.99448
795.096,-6219.9,2.11505
796.172,-6236.89,1.8881
797.248,-6253.84,2.4145
798.323,-6270.74,3.90465
799.399,-6287.6,6.38377
800.475,-6304.41,8.61702
801.551,-6321.17,10.1363
802.626,-6337.89,10.7116
803.702,-6354.57,16.1316
804.778,-6371.2,20.8818
805.854,-6387.79,33.3806
806.929,-6404.33,39.0268
808.005,-6420.83,35.9968
809.081,-6437.29,27.5579
810.157,-6453.7,18.2774
811.232,-6470.07,39.7738
812.308,-6486.39,39.9582
813.384,-6502.67,22.4106
814.46,-6518.91,15.6162
815.535,-6535.11,11.6076
816.611,-6551.26,7.81797
817.687,-6567.37,4.1907
818.763,-6583.44,3.53586
819.838,-6599.47,5.23247
820.914,-6615.45,4.65406
821.99,-6631.39,3.37195
823.066,-6647.29,3.16233
824.141,-6663.15,2.2435
825.217,-6678.97,1.49409
826.293,-6694.75,1.30969
827.369,-6710.48,1.69661
828.444,-6726.18,1.94169
829.52,-6741.83,1.342
830.596,-6757.44,1.21434
831.672,-6773.02,1.26872
832.748,-6788.55,1.14184
833.823,-6804.04,1.19228
834.899,-6819.5,0.661151
835.975,-6834.91,0.0929866
837.051,-6850.28,0.400315
838.126,-6865.62,0.326241
839.202,-6880.91,0.466509
840.278,-6896.17,0.547675
841.354,-6911.38,0.539795
842.429,-6926.56,0.505122
843.505,-6941.7,0.617809
844.581,-6956.8,0.962963
845.657,-6971.86,0.613081
846.732,-6986.89,0.118991
847.808,-7001.87,0.169425
848.884,-7016.82,0.0819543
849.96,-7031.73,0.339638
851.035,-7046.6,0.424744
852.111,-7061.43,0.557132
853.187,-7076.23,0.421592
854.263,-7090.99,0.51379
855.338,-7105.71,0.486998
856.414,-7120.4,0.174941
857.49,-7135.05,0.0133964
858.566,-7149.66,0.178881
859.641,-7164.24,0.29078
860.717,-7178.77,0.273444
861.793,-7193.28,0.179669
862.869,-7207.74,0.198582
863.944,-7222.17,0.323089
865.02,-7236.57,0.304177
866.096,-7250.93,0.27502
867.172,-7265.25,0.259259
868.247,-7279.54,0.0780142
869.323,-7293.79,0.22695
870.399,-7308.01,0.0
871.475,-7322.19,0.251379
872.551,-7336.34,0.0126084
873.626,-7350.45,0.126084
874.702,-7364.53,0.114263
875.778,-7378.57,0.0780142
876.854,-7392.58,0.210402
877.929,-7406.55,0.00157604
879.005,-7420.49,0.277384
880.081,-7434.4,0.293932
881.157,-7448.27,0.0
882.232,-7462.11,0.149724
883.308,-7475.91,0.0866824
884.384,-7489.68,0.0252167
885.46,-7503.42,0.200158
886.535,-7517.13,0.310481
887.611,-7530.8,0.163121
888.687,-7544.44,0.356186
889.763,-7558.04,0.111899
890.838,-7571.61,0.00630418
891.914,-7585.15,0.0858944
892.99,-7598.66,0.0756501
894.066,-7612.13,0.238771
895.141,-7625.57,0.260835
896.217,-7638.98,0.0
897.293,-7652.36,0.174941
898.369,-7665.7,0.218282
899.444,-7679.02,0.241135
900.52,-7692.3,0.0551615
901.596,-7705.55,0.0685579
902.672,-7718.77,0.216706
903.747,-7731.95,0.195429
904.823,-7745.11,0.0
905.899,-7758.23,0.193065
906.975,-7771.33,0.168637
908.05,-7784.39,0.0
909.126,-7797.42,0.150512
910.202,-7810.42,0.240347
911.278,-7823.39,0.0
912.354,-7836.33,0.146572
913.429,-7849.24,0.154452
914.505,-7862.12,0.101655
915.581,-7874.96,0.120567
916.657,-7887.78,0.0299448
917.732,-7900.57,0.0307329
918.808,-7913.33,0.0598897
919.884,-7926.05,0.168637
920.96,-7938.75,0.160757
922.035,-7951.42,0.0
923.111,-7964.06,0.0874704
924.187,-7976.67,0.161545
925.263,-7989.25,0.0788022
926.338,-8001.8,0.0
927.414,-8014.32,0.072498
928.49,-8026.82,0.0866824
929.566,-8039.28,0.109535
930.641,-8051.71,0.070134
931.717,-8064.12,0.0394011
932.793,-8076.5,0.0512214
933.869,-8088.85,0.144996
934.944,-8101.17,0.1316
936.02,-8113.46,0.168637
937.096,-8125.73,0.0638298
938.172,-8137.96,0.0401891
939.247,-8150.17,0.0504334
940.323,-8162.35,0.125296
941.399,-8174.5,0.0441292
942.475,-8186.63,0.0472813
943.55,-8198.73,0.0
944.626,-8210.79,0.0409771
945.702,-8222.84,0.1513
946.778,-8234.85,0.182033
947.853,-8246.84,0.0
948.929,-8258.8,0.0795902
950.005,-8270.73,0.130812
951.081,-8282.64,0.158392
952.157,-8294.52,0.0
953.232,-8306.37,0.164697
954.308,-8318.2,0.104019
955.384,-8329.99,0.105595
956.46,-8341.77,0.0118203
957.535,-8353.51,0.0788022
958.611,-8365.23,0.128448
959.687,-8376.93,0.0985028
960.763,-8388.59,0.0283688
961.838,-8400.23,0.160757
962.914,-8411.85,0.0866824
963.99,-8423.44,0.157604
965.066,-8435,0.07171
966.141,-8446.54,0.171001
967.217,-8458.05,0.154452
968.293,-8469.54,0.174153
969.369,-8481,0.0133964
970.444,-8492.43,0.106383
971.52,-8503.85,0.0614657
972.596,-8515.23,0.163121
973.672,-8526.59,0.0
974.747,-8537.92,0.144996
975.823,-8549.23,0.0472813
976.899,-8560.52,0.156816
977.975,-8571.78,0.0874704
979.05,-8583.01,0.216706
980.126,-8594.22,0.0
981.202,-8605.41,0.0985028
982.278,-8616.57,0.0496454
983.353,-8627.71,0.181245
984.429,-8638.82,0.00315209
985.505,-8649.91,0.160757
986.581,-8660.97,0.0157604
987.656,-8672.01,0.105595
988.732,-8683.03,0.221434
989.808,-8694.02,0.275808
990.884,-8704.99,0.0
991.96,-8715.94,0.205674
993.035,-8726.86,0.142632
994.111,-8737.75,0.225374
995.187,-8748.63,0.0
996.263,-8759.48,0.196217
997.338,-8770.3,0.190701
998.414,-8781.11,0.0606777
999.49,-8791.89,0.0
1000.57,-8802.64,0.158392
1001.64,-8813.38,0.0433412
1002.72,-8824.09,0.211978
1003.79,-8834.78,0.0
1004.87,-8845.44,0.261623
1005.94,-8856.08,0.13554
1007.02,-8866.7,0.213554
1008.1,-8877.3,0.0291568
1009.17,-8887.88,0.241135
1010.25,-8898.43,0.197006
1011.32,-8908.96,0.169425
1012.4,-8919.46,0.0740741
1013.47,-8929.95,0.0685579
1014.55,-8940.41,0.104807
1015.63,-8950.85,0.297872
1016.7,-8961.27,0.0480693
1017.78,-8971.66,0.0575256
1018.85,-8982.04,0.14736
1019.93,-8992.39,0.0740741
1021,-9002.72,0.0677699
1022.08,-9013.03,0.128448
1023.16,-9023.32,0.0
1024.23,-9033.58,0.189125
1025.31,-9043.83,0.0504334
1026.38,-9054.05,0.193065
1027.46,-9064.25,0.0898345
1028.54,-9074.43,0.0961387
1029.61,-9084.59,0.0
1030.69,-9094.72,0.182033
1031.76,-9104.84,0.3026
1032.84,-9114.93,0.237195
1033.91,-9125.01,0.00788022
1034.99,-9135.06,0.217494
1036.07,-9145.09,0.27502
1037.14,-9155.1,0.150512
1038.22,-9165.1,0.0843184
1039.29,-9175.07,0.113475
1040.37,-9185.01,0.0780142
1041.44,-9194.94,0.15524
1042.52,-9204.85,0.0614657
1043.6,-9214.74,0.189125
1044.67,-9224.61,0.0992908
1045.75,-9234.45,0.132388
1046.82,-9244.28,0.00315209
1047.9,-9254.09,0.118203
1048.97,-9263.87,0.300236
1050.05,-9273.64,0.189125
1051.13,-9283.39,0.0535855
1052.2,-9293.11,0.324665
1053.28,-9302.82,0.19937
1054.35,-9312.51,0.178881
1055.43,-9322.17,0.0
1056.5,-9331.82,0.109535
1057.58,-9341.45,0.124507
1058.66,-9351.06,0.186761
1059.73,-9360.65,0.163909
1060.81,-9370.22,0.550827
1061.88,-9379.77,0.614657
1062.96,-9389.3,0.805359
1064.04,-9398.81,1.98266
1065.11,-9408.3,4.80851
1066.19,-9417.77,9.80772
1067.26,-9427.23,8.12687
1068.34,-9436.66,2.30496
1069.41,-9446.08,0.659574
1070.49,-9455.47,0.187549
1071.57,-9464.85,0.249015
1072.64,-9474.21,0.0
1073.72,-9483.55,0.0827423
1074.79,-9492.87,0.166273
1075.87,-9502.18,0.111111
1076.94,-9511.46,0.0118203
1078.02,-9520.73,0.238771
1079.1,-9529.97,0.129236
1080.17,-9539.2,0.0102443
1081.25,-9548.41,0.0527975
1082.32,-9557.61,0.219858
1083.4,-9566.78,0.0
1084.47,-9575.94,0.0945626
1085.55,-9585.08,0.160757
1086.63,-9594.2,0.195429
1087.7,-9603.3,0.0512214
1088.78,-9612.38,0.178093
1089.85,-9621.45,0.137116
1090.93,-9630.49,0.256895
1092,-9639.52,0.113475
1093.08,-9648.54,0.0677699
1094.16,-9657.53,0.0464933
1095.23,-9666.51,0.176517
1096.31,-9675.47,0.144996
1097.38,-9684.41,0.209614
1098.46,-9693.33,0.132388
1099.54,-9702.24,0.148936
1100.61,-9711.13,0.0
1101.69,-9720,0.230102
1102.76,-9728.86,0.0992908
1103.84,-9737.69,0.180457
1104.91,-9746.51,0.0260047
1105.99,-9755.32,0.229314
1107.07,-9764.1,0.0
1108.14,-9772.87,0.184397
1109.22,-9781.62,0.0851064
1110.29,-9790.36,0.104019
1111.37,-9799.08,0.12766
1112.44,-9807.78,0.167061
1113.52,-9816.46,0.0
1114.6,-9825.13,0.0788022
1115.67,-9833.78,0.0433412
1116.75,-9842.42,0.213554
1117.82,-9851.03,0.0244287
1118.9,-9859.63,0.161545
1119.97,-9868.22,0.0236407
1121.05,-9876.79,0.0985028
1122.13,-9885.34,0.0835303
1123.2,-9893.87,0.158392
1124.28,-9902.39,0.0
1125.35,-9910.89,0.00472813
1126.43,-9919.38,0.0417652
1127.5,-9927.85,0.0417652
1128.58,-9936.31,0.0
1129.66,-9944.74,0.162333
1130.73,-9953.17,0.0788022
1131.81,-9961.57,0.141056
1132.88,-9969.96,0.0
1133.96,-9978.33,0.1513
1135.04,-9986.69,0.0921986
1136.11,-9995.04,0.20725
1137.19,-10003.4,0.00630418
1138.26,-10011.7,0.0
1139.34,-10020,0.0890465
1140.41,-10028.2,0.129236
1141.49,-10036.5,0.037037
1142.57,-10044.8,0.112687
1143.64,-10053,0.141844
1144.72,-10061.2,0.184397
1145.79,-10069.4,0.0
1146.87,-10077.6,0.252167
1147.94,-10085.8,0.172577
1149.02,-10093.9,0.174941
1150.1,-10102.1,0.0409771
1151.17,-10110.2,0.0654058
1152.25,-10118.3,0.0945626
1153.32,-10126.4,0.178093
1154.4,-10134.5,0.0
1155.47,-10142.5,0.12766
1156.55,-10150.6,0.0803783
1157.63,-10158.6,0.0149724
1158.7,-10166.6,0.07171
1159.78,-10174.6,0.104019
1160.85,-10182.6,0.1316
1161.93,-10190.6,0.0811663
1163,-10198.6,0.070922
1164.08,-10206.5,0.106383
1165.16,-10214.5,0.0
1166.23,-10222.4,0.193065
1167.31,-10230.3,0.0197006
1168.38,-10238.2,0.0583136
1169.46,-10246,0.261623
1170.54,-10253.9,0.269504
1171.61,-10261.7,0.0
1172.69,-10269.6,0.249803
1173.76,-10277.4,0.299448
1174.84,-10285.2,0.212766
1175.91,-10293,0.168637
1176.99,-10300.7,0.0961387
1178.07,-10308.5,0.0
1179.14,-10316.2,0.144208
1180.22,-10324,0.0323089
1181.29,-10331.7,0.189125
1182.37,-10339.4,0.0
1183.44,-10347.1,0.070134
1184.52,-10354.8,0.0417652
1185.6,-10362.4,0.183609
1186.67,-10370.1,0.217494
1187.75,-10377.7,0.206462
1188.82,-10385.3,0.0
1189.9,-10392.9,0.289992
1190.97,-10400.5,0.194641
1192.05,-10408.1,0.0
1193.13,-10415.6,0.0945626
1194.2,-10423.2,0.130812
1195.28,-10430.7,0.112687
1196.35,-10438.3,0.140268
1197.43,-10445.8,0.0
1198.5,-10453.3,0.130812
1199.58,-10460.7,0.0977147
1200.66,-10468.2,0.194641
1201.73,-10475.7,0.0141844
1202.81,-10483.1,0.034673
1203.88,-10490.5,0.146572
1204.96,-10498,0.260835
1206.04,-10505.4,0.134752
1207.11,-10512.7,0.117415
1208.19,-10520.1,0.229314
1209.26,-10527.5,0.225374
1210.34,-10534.8,0.0141844
1211.41,-10542.2,0.15918
1212.49,-10549.5,0.0866824
1213.57,-10556.8,0.122143
1214.64,-10564.1,0.0527975
1215.72,-10571.4,0.161545
1216.79,-10578.7,0.0740741
1217.87,-10585.9,0.194641
1218.94,-10593.2,0.130024
1220.02,-10600.4,0.289204
1221.1,-10607.6,0.0173365
1222.17,-10614.8,0.15918
1223.25,-10622,0.0
1224.32,-10629.2,0.168637
1225.4,-10636.4,0.137116
1226.47,-10643.5,0.185185
1227.55,-10650.7,0.0
1228.63,-10657.8,0.277384
1229.7,-10664.9,0.171789
1230.78,-10672,0.13554
1231.85,-10679.1,0.0126084
1232.93,-10686.2,0.156028
1234,-10693.3,0.148936
1235.08,-10700.4,0.0338849
1236.16,-10707.4,0.100079
1237.23,-10714.4,0.237195
1238.31,-10721.5,0.200946
1239.38,-10728.5,0.243499
1240.46,-10735.5,0.0496454
1241.54,-10742.4,0.111111
1242.61,-10749.4,0.193853
1243.69,-10756.4,0.216706
1244.76,-10763.3,0.0
1245.84,-10770.3,0.034673
1246.91,-10777.2,0.0417652
1247.99,-10784.1,0.0654058
1249.07,-10791,0.0921986
1250.14,-10797.9,0.303388
1251.22,-10804.8,0.0275808
1252.29,-10811.6,0.15918
1253.37,-10818.5,0.231678
1254.44,-10825.3,0.0228526
1255.52,-10832.2,0.130812
1256.6,-10839,0.111111
1257.67,-10845.8,0.0
1258.75,-10852.6,0.174941
1259.82,-10859.4,0.142632
1260.9,-10866.1,0.194641
1261.97,-10872.9,0.00157604
1263.05,-10879.7,0.263987
1264.13,-10886.4,0.07171
1265.2,-10893.1,0.0654058
1266.28,-10899.8,0.0
1267.35,-10906.5,0.184397
1268.43,-10913.2,0.236407
1269.5,-10919.9,0.126872
1270.58,-10926.6,0.0228526
1271.66,-10933.2,0.116627
1272.73,-10939.9,0.120567
1273.81,-10946.5,0.0512214
1274.88,-10953.1,0.0488574
1275.96,-10959.8,0.260835
1277.04,-10966.4,0.0992908
1278.11,-10972.9,0.175729
1279.19,-10979.5,0.146572
1280.26,-10986.1,0.0961387
1281.34,-10992.7,0.245863
1282.41,-10999.2,0.100079
1283.49,-11005.7,0.160757
1284.03,-11009,0.247439